*Wavelength (um) n k 
ComplexRefractiveIndex { 
  Formula = 1 
NumericalTable( 
0.8267 3.406 0.1475; 
0.8275 3.406 0.1475; 
0.8283 3.406 0.1476; 
0.8292 3.406 0.1476; 
0.83 3.406 0.1477; 
0.8308 3.406 0.1477; 
0.8317 3.406 0.1477; 
0.8325 3.406 0.1478; 
0.8333 3.406 0.1478; 
0.8342 3.406 0.1479; 
0.835 3.406 0.1479; 
0.8359 3.406 0.148; 
0.8367 3.406 0.148; 
0.8376 3.406 0.1481; 
0.8384 3.406 0.1481; 
0.8393 3.406 0.1482; 
0.8401 3.406 0.1482; 
0.841 3.406 0.1482; 
0.8418 3.406 0.1483; 
0.8427 3.406 0.1483; 
0.8435 3.406 0.1484; 
0.8444 3.406 0.1484; 
0.8453 3.406 0.1485; 
0.8461 3.406 0.1485; 
0.847 3.406 0.1486; 
0.8479 3.406 0.1486; 
0.8487 3.406 0.1487; 
0.8496 3.406 0.1487; 
0.8505 3.406 0.1488; 
0.8514 3.406 0.1488; 
0.8522 3.406 0.1488; 
0.8531 3.406 0.1489; 
0.854 3.406 0.1489; 
0.8549 3.406 0.149; 
0.8558 3.406 0.149; 
0.8567 3.406 0.1491; 
0.8575 3.406 0.1491; 
0.8584 3.406 0.1492; 
0.8593 3.406 0.1492; 
0.8602 3.406 0.1493; 
0.8611 3.406 0.1493; 
0.862 3.406 0.1493; 
0.8629 3.406 0.1494; 
0.8638 3.406 0.1494; 
0.8647 3.406 0.1495; 
0.8656 3.406 0.1495; 
0.8665 3.406 0.1496; 
0.8675 3.406 0.1496; 
0.8684 3.406 0.1497; 
0.8693 3.406 0.1497; 
0.8702 3.406 0.1498; 
0.8711 3.406 0.1498; 
0.872 3.406 0.1498; 
0.8729 3.406 0.1499; 
0.8739 3.406 0.1499; 
0.8748 3.406 0.15; 
0.8757 3.406 0.15; 
0.8767 3.406 0.1501; 
0.8776 3.406 0.1501; 
0.8785 3.406 0.1502; 
0.8795 3.406 0.1502; 
0.8804 3.406 0.1503; 
0.8813 3.406 0.1503; 
0.8823 3.406 0.1503; 
0.8832 3.406 0.1504; 
0.8842 3.406 0.1504; 
0.8851 3.406 0.1505; 
0.8861 3.406 0.1505; 
0.887 3.406 0.1506; 
0.888 3.406 0.1506; 
0.8889 3.406 0.1507; 
0.8899 3.406 0.1507; 
0.8908 3.406 0.1507; 
0.8918 3.406 0.1508; 
0.8928 3.406 0.1508; 
0.8937 3.406 0.1509; 
0.8947 3.406 0.1509; 
0.8957 3.406 0.151; 
0.8966 3.406 0.151; 
0.8976 3.406 0.1511; 
0.8986 3.406 0.1511; 
0.8996 3.406 0.1512; 
0.9005 3.406 0.1512; 
0.9015 3.406 0.1512; 
0.9025 3.406 0.1513; 
0.9035 3.406 0.1513; 
0.9045 3.406 0.1514; 
0.9055 3.406 0.1514; 
0.9065 3.406 0.1515; 
0.9075 3.406 0.1515; 
0.9085 3.406 0.1516; 
0.9095 3.406 0.1516; 
0.9105 3.406 0.1516; 
0.9115 3.406 0.1517; 
0.9125 3.406 0.1517; 
0.9135 3.406 0.1518; 
0.9145 3.406 0.1518; 
0.9155 3.406 0.1519; 
0.9165 3.406 0.1519; 
0.9175 3.406 0.152; 
0.9186 3.406 0.152; 
0.9196 3.406 0.152; 
0.9206 3.406 0.1521; 
0.9216 3.406 0.1521; 
0.9227 3.406 0.1522; 
0.9237 3.406 0.1522; 
0.9247 3.406 0.1523; 
0.9258 3.406 0.1523; 
0.9268 3.406 0.1524; 
0.9278 3.406 0.1524; 
0.9289 3.406 0.1524; 
0.9299 3.406 0.1525; 
0.931 3.406 0.1525; 
0.932 3.406 0.1526; 
0.9331 3.406 0.1526; 
0.9341 3.406 0.1527; 
0.9352 3.406 0.1527; 
0.9362 3.406 0.1527; 
0.9373 3.406 0.1528; 
0.9384 3.406 0.1528; 
0.9394 3.406 0.1529; 
0.9405 3.406 0.1529; 
0.9416 3.406 0.153; 
0.9427 3.406 0.153; 
0.9437 3.406 0.1531; 
0.9448 3.406 0.1531; 
0.9459 3.406 0.1531; 
0.947 3.406 0.1532; 
0.9481 3.406 0.1532; 
0.9491 3.406 0.1533; 
0.9502 3.406 0.1533; 
0.9513 3.406 0.1534; 
0.9524 3.406 0.1534; 
0.9535 3.406 0.1534; 
0.9546 3.406 0.1535; 
0.9557 3.406 0.1535; 
0.9568 3.406 0.1536; 
0.9579 3.406 0.1536; 
0.9591 3.406 0.1537; 
0.9602 3.406 0.1537; 
0.9613 3.406 0.1537; 
0.9624 3.406 0.1538; 
0.9635 3.406 0.1538; 
0.9647 3.406 0.1539; 
0.9658 3.406 0.1539; 
0.9669 3.406 0.154; 
0.968 3.406 0.154; 
0.9692 3.406 0.154; 
0.9703 3.406 0.1541; 
0.9715 3.406 0.1541; 
0.9726 3.406 0.1542; 
0.9738 3.406 0.1542; 
0.9749 3.406 0.1543; 
0.9761 3.406 0.1543; 
0.9772 3.406 0.1543; 
0.9784 3.406 0.1544; 
0.9795 3.406 0.1544; 
0.9807 3.406 0.1545; 
0.9819 3.406 0.1545; 
0.983 3.406 0.1545; 
0.9842 3.406 0.1546; 
0.9854 3.406 0.1546; 
0.9865 3.406 0.1547; 
0.9877 3.406 0.1547; 
0.9889 3.406 0.1548; 
0.9901 3.406 0.1548; 
0.9913 3.406 0.1548; 
0.9925 3.406 0.1549; 
0.9937 3.406 0.1549; 
0.9949 3.406 0.155; 
0.9961 3.406 0.155; 
0.9973 3.406 0.155; 
0.9985 3.406 0.1551; 
0.9997 3.406 0.1551; 
1.001 3.406 0.1552; 
1.002 3.406 0.1552; 
1.003 3.406 0.1553; 
1.005 3.406 0.1553; 
1.006 3.406 0.1553; 
1.007 3.406 0.1554; 
1.008 3.406 0.1554; 
1.009 3.406 0.1555; 
1.011 3.406 0.1555; 
1.012 3.406 0.1555; 
1.013 3.406 0.1556; 
1.014 3.406 0.1556; 
1.016 3.406 0.1557; 
1.017 3.406 0.1557; 
1.018 3.406 0.1557; 
1.019 3.406 0.1558; 
1.021 3.406 0.1558; 
1.022 3.406 0.1559; 
1.023 3.406 0.1559; 
1.024 3.406 0.1559; 
1.026 3.406 0.156; 
1.027 3.406 0.156; 
1.028 3.406 0.1561; 
1.03 3.406 0.1561; 
1.031 3.406 0.1561; 
1.032 3.406 0.1562; 
1.033 3.406 0.1562; 
1.035 3.406 0.1563; 
1.036 3.406 0.1563; 
1.037 3.406 0.1563; 
1.039 3.406 0.1564; 
1.04 3.406 0.1564; 
1.041 3.406 0.1565; 
1.043 3.406 0.1565; 
1.044 3.406 0.1565; 
1.045 3.406 0.1566; 
1.047 3.406 0.1566; 
1.048 3.406 0.1567; 
1.049 3.406 0.1567; 
1.05 3.406 0.1567; 
1.052 3.406 0.1568; 
1.053 3.406 0.1568; 
1.055 3.406 0.1568; 
1.056 3.406 0.1569; 
1.057 3.406 0.1569; 
1.059 3.406 0.157; 
1.06 3.406 0.157; 
1.061 3.406 0.157; 
1.063 3.406 0.1571; 
1.064 3.406 0.1571; 
1.065 3.406 0.1571; 
1.067 3.406 0.1572; 
1.068 3.406 0.1572; 
1.07 3.406 0.1573; 
1.071 3.406 0.1573; 
1.072 3.406 0.1573; 
1.074 3.406 0.1574; 
1.075 3.406 0.1574; 
1.076 3.406 0.1574; 
1.078 3.406 0.1575; 
1.079 3.406 0.1575; 
1.081 3.406 0.1576; 
1.082 3.406 0.1576; 
1.084 3.406 0.1576; 
1.085 3.406 0.1577; 
1.086 3.406 0.1577; 
1.088 3.406 0.1577; 
1.089 3.406 0.1578; 
1.091 3.406 0.1578; 
1.092 3.406 0.1578; 
1.094 3.406 0.1579; 
1.095 3.406 0.1579; 
1.096 3.406 0.1579; 
1.098 3.406 0.158; 
1.099 3.406 0.158; 
1.101 3.406 0.1581; 
1.102 3.406 0.1581; 
1.104 3.406 0.1581; 
1.105 3.406 0.1582; 
1.107 3.406 0.1582; 
1.108 3.406 0.1582; 
1.11 3.406 0.1583; 
1.111 3.406 0.1583; 
1.113 3.406 0.1583; 
1.114 3.406 0.1584; 
1.116 3.406 0.1584; 
1.117 3.406 0.1584; 
1.119 3.406 0.1585; 
1.12 3.406 0.1585; 
1.122 3.406 0.1585; 
1.123 3.406 0.1586; 
1.125 3.406 0.1586; 
1.126 3.406 0.1586; 
1.128 3.406 0.1587; 
1.129 3.406 0.1587; 
1.131 3.406 0.1587; 
1.133 3.406 0.1588; 
1.134 3.406 0.1588; 
1.136 3.406 0.1588; 
1.137 3.406 0.1589; 
1.139 3.406 0.1589; 
1.14 3.406 0.1589; 
1.142 3.406 0.159; 
1.144 3.406 0.159; 
1.145 3.406 0.159; 
1.147 3.406 0.1591; 
1.148 3.406 0.1591; 
1.15 3.406 0.1591; 
1.151 3.406 0.1591; 
1.153 3.406 0.1592; 
1.155 3.406 0.1592; 
1.156 3.406 0.1592; 
1.158 3.406 0.1593; 
1.16 3.406 0.1593; 
1.161 3.406 0.1593; 
1.163 3.406 0.1594; 
1.164 3.406 0.1594; 
1.166 3.406 0.1594; 
1.168 3.406 0.1595; 
1.169 3.406 0.1595; 
1.171 3.406 0.1595; 
1.173 3.406 0.1595; 
1.174 3.406 0.1596; 
1.176 3.406 0.1596; 
1.178 3.406 0.1596; 
1.179 3.406 0.1597; 
1.181 3.406 0.1597; 
1.183 3.406 0.1597; 
1.185 3.406 0.1597; 
1.186 3.406 0.1598; 
1.188 3.406 0.1598; 
1.19 3.406 0.1598; 
1.191 3.406 0.1599; 
1.193 3.406 0.1599; 
1.195 3.406 0.1599; 
1.197 3.406 0.1599; 
1.198 3.406 0.16; 
1.2 3.406 0.16; 
1.202 3.406 0.16; 
1.203 3.406 0.16; 
1.205 3.406 0.1601; 
1.207 3.406 0.1601; 
1.209 3.406 0.1601; 
1.211 3.406 0.1601; 
1.212 3.406 0.1602; 
1.214 3.406 0.1602; 
1.216 3.406 0.1602; 
1.218 3.406 0.1602; 
1.219 3.406 0.1603; 
1.221 3.406 0.1603; 
1.223 3.406 0.1603; 
1.225 3.406 0.1603; 
1.227 3.406 0.1604; 
1.229 3.406 0.1604; 
1.23 3.406 0.1604; 
1.232 3.406 0.1604; 
1.234 3.406 0.1605; 
1.236 3.406 0.1605; 
1.238 3.406 0.1605; 
1.24 3.406 0.1605; 
1.241 3.406 0.1606; 
1.243 3.406 0.1606; 
1.245 3.406 0.1606; 
1.247 3.406 0.1606; 
1.249 3.406 0.1606; 
1.251 3.406 0.1607; 
1.253 3.406 0.1607; 
1.255 3.406 0.1607; 
1.257 3.406 0.1607; 
1.258 3.406 0.1607; 
1.26 3.406 0.1608; 
1.262 3.406 0.1608; 
1.264 3.406 0.1608; 
1.266 3.406 0.1608; 
1.268 3.406 0.1608; 
1.27 3.406 0.1609; 
1.272 3.406 0.1609; 
1.274 3.406 0.1609; 
1.276 3.406 0.1609; 
1.278 3.406 0.1609; 
1.28 3.406 0.161; 
1.282 3.406 0.161; 
1.284 3.406 0.161; 
1.286 3.406 0.161; 
1.288 3.406 0.161; 
1.29 3.406 0.161; 
1.292 3.406 0.1611; 
1.294 3.406 0.1611; 
1.296 3.406 0.1611; 
1.298 3.406 0.1611; 
1.3 3.406 0.1611; 
1.302 3.406 0.1611; 
1.304 3.406 0.1612; 
1.306 3.406 0.1612; 
1.308 3.406 0.1612; 
1.31 3.406 0.1612; 
1.312 3.406 0.1612; 
1.315 3.406 0.1612; 
1.317 3.406 0.1612; 
1.319 3.406 0.1613; 
1.321 3.406 0.1613; 
1.323 3.406 0.1613; 
1.325 3.406 0.1613; 
1.327 3.406 0.1613; 
1.329 3.406 0.1613; 
1.331 3.406 0.1613; 
1.334 3.406 0.1613; 
1.336 3.406 0.1614; 
1.338 3.406 0.1614; 
1.34 3.406 0.1614; 
1.342 3.406 0.1614; 
1.344 3.406 0.1614; 
1.347 3.406 0.1614; 
1.349 3.406 0.1614; 
1.351 3.406 0.1614; 
1.353 3.406 0.1614; 
1.355 3.406 0.1614; 
1.358 3.406 0.1615; 
1.36 3.406 0.1615; 
1.362 3.406 0.1615; 
1.364 3.406 0.1615; 
1.367 3.406 0.1615; 
1.369 3.406 0.1615; 
1.371 3.406 0.1615; 
1.374 3.406 0.1615; 
1.376 3.406 0.1615; 
1.378 3.406 0.1615; 
1.38 3.406 0.1615; 
1.383 3.406 0.1615; 
1.385 3.406 0.1615; 
1.387 3.406 0.1615; 
1.39 3.406 0.1615; 
1.392 3.406 0.1615; 
1.394 3.406 0.1615; 
1.397 3.406 0.1615; 
1.399 3.406 0.1616; 
1.401 3.406 0.1616; 
1.404 3.406 0.1616; 
1.406 3.406 0.1616; 
1.409 3.406 0.1616; 
1.411 3.406 0.1616; 
1.413 3.406 0.1616; 
1.416 3.406 0.1616; 
1.418 3.406 0.1616; 
1.421 3.406 0.1616; 
1.423 3.406 0.1616; 
1.426 3.406 0.1616; 
1.428 3.406 0.1616; 
1.431 3.406 0.1616; 
1.433 3.406 0.1616; 
1.436 3.406 0.1616; 
1.438 3.406 0.1616; 
1.441 3.406 0.1615; 
1.443 3.406 0.1615; 
1.446 3.406 0.1615; 
1.448 3.406 0.1615; 
1.451 3.406 0.1615; 
1.453 3.406 0.1615; 
1.456 3.406 0.1615; 
1.458 3.406 0.1615; 
1.461 3.406 0.1615; 
1.464 3.406 0.1615; 
1.466 3.406 0.1615; 
1.469 3.406 0.1615; 
1.471 3.406 0.1615; 
1.474 3.406 0.1615; 
1.477 3.406 0.1615; 
1.479 3.406 0.1615; 
1.482 3.406 0.1615; 
1.485 3.405 0.1615; 
1.487 3.405 0.1615; 
1.49 3.405 0.1615; 
1.493 3.405 0.1615; 
1.495 3.405 0.1615; 
1.498 3.405 0.1615; 
1.501 3.405 0.1615; 
1.503 3.405 0.1615; 
1.506 3.405 0.1614; 
1.509 3.405 0.1614; 
1.512 3.405 0.1614; 
1.514 3.405 0.1614; 
1.517 3.405 0.1614; 
1.52 3.405 0.1614; 
1.523 3.405 0.1614; 
1.526 3.405 0.1614; 
1.528 3.405 0.1615; 
1.531 3.405 0.1615; 
1.534 3.405 0.1615; 
1.537 3.405 0.1615; 
1.54 3.405 0.1615; 
1.543 3.405 0.1615; 
1.546 3.405 0.1615; 
1.549 3.405 0.1615; 
1.551 3.405 0.1615; 
1.554 3.405 0.1616; 
1.557 3.405 0.1616; 
1.56 3.405 0.1616; 
1.563 3.405 0.1616; 
1.566 3.405 0.1617; 
1.569 3.405 0.1617; 
1.572 3.405 0.1617; 
1.575 3.405 0.1618; 
1.578 3.405 0.1618; 
1.581 3.405 0.1619; 
1.584 3.405 0.1619; 
1.587 3.405 0.162; 
1.59 3.405 0.1621; 
1.593 3.405 0.1621; 
1.596 3.405 0.1622; 
1.599 3.405 0.1623; 
1.603 3.405 0.1624; 
1.606 3.405 0.1625; 
1.609 3.405 0.1626; 
1.612 3.405 0.1627; 
1.615 3.405 0.1628; 
1.618 3.405 0.163; 
1.621 3.405 0.1631; 
1.625 3.405 0.1633; 
1.628 3.405 0.1634; 
1.631 3.405 0.1636; 
1.634 3.405 0.1638; 
1.637 3.405 0.1639; 
1.641 3.405 0.1641; 
1.644 3.405 0.1644; 
1.647 3.405 0.1646; 
1.651 3.405 0.1648; 
1.654 3.405 0.1651; 
1.657 3.405 0.1653; 
1.661 3.405 0.1656; 
1.664 3.405 0.1659; 
1.667 3.405 0.1661; 
1.671 3.405 0.1665; 
1.674 3.405 0.1668; 
1.677 3.405 0.1671; 
1.681 3.405 0.1674; 
1.684 3.405 0.1678; 
1.688 3.405 0.1681; 
1.691 3.405 0.1685; 
1.695 3.405 0.1689; 
1.698 3.405 0.1693; 
1.702 3.405 0.1696; 
1.705 3.405 0.17; 
1.709 3.405 0.1705; 
1.712 3.405 0.1709; 
1.716 3.405 0.1713; 
1.719 3.405 0.1717; 
1.723 3.405 0.1721; 
1.726 3.405 0.1725; 
1.73 3.405 0.173; 
1.734 3.405 0.1734; 
1.737 3.405 0.1738; 
1.741 3.405 0.1742; 
1.745 3.405 0.1747; 
1.748 3.405 0.1751; 
1.752 3.405 0.1755; 
1.756 3.405 0.1759; 
1.76 3.405 0.1763; 
1.763 3.405 0.1767; 
1.767 3.405 0.1771; 
1.771 3.405 0.1774; 
1.775 3.405 0.1778; 
1.778 3.405 0.1782; 
1.782 3.405 0.1785; 
1.786 3.405 0.1789; 
1.79 3.405 0.1792; 
1.794 3.405 0.1795; 
1.798 3.405 0.1798; 
1.802 3.405 0.1801; 
1.806 3.405 0.1804; 
1.81 3.405 0.1807; 
1.814 3.405 0.1809; 
1.818 3.405 0.1812; 
1.822 3.405 0.1814; 
1.826 3.405 0.1816; 
1.83 3.405 0.1818; 
1.834 3.405 0.182; 
1.838 3.405 0.1822; 
1.842 3.405 0.1824; 
1.846 3.405 0.1826; 
1.85 3.405 0.1827; 
1.854 3.405 0.1829; 
1.858 3.405 0.183; 
1.863 3.405 0.1831; 
1.867 3.405 0.1833; 
1.871 3.405 0.1834; 
1.875 3.405 0.1835; 
1.88 3.405 0.1835; 
1.884 3.405 0.1836; 
1.888 3.405 0.1837; 
1.892 3.405 0.1838; 
1.897 3.405 0.1838; 
1.901 3.405 0.1839; 
1.906 3.405 0.1839; 
1.91 3.405 0.1839; 
1.914 3.405 0.184; 
1.919 3.405 0.184; 
1.923 3.405 0.184; 
1.928 3.405 0.184; 
1.932 3.405 0.184; 
1.937 3.405 0.184; 
1.941 3.405 0.184; 
1.946 3.405 0.1839; 
1.951 3.405 0.1839; 
1.955 3.405 0.1839; 
1.96 3.405 0.1839; 
1.964 3.405 0.1838; 
1.969 3.405 0.1838; 
1.974 3.405 0.1837; 
1.979 3.405 0.1837; 
1.983 3.405 0.1836; 
1.988 3.405 0.1835; 
1.993 3.405 0.1835; 
1.998 3.405 0.1834; 
2.003 3.405 0.1833; 
2.007 3.405 0.1832; 
2.012 3.405 0.1832; 
2.017 3.405 0.1831; 
2.022 3.405 0.183; 
2.027 3.405 0.1829; 
2.032 3.405 0.1828; 
2.037 3.405 0.1827; 
2.042 3.405 0.1826; 
2.047 3.405 0.1825; 
2.052 3.405 0.1823; 
2.057 3.405 0.1822; 
2.063 3.405 0.1821; 
2.068 3.405 0.182; 
2.073 3.405 0.1819; 
2.078 3.405 0.1817; 
2.083 3.405 0.1816; 
2.089 3.405 0.1815; 
2.094 3.405 0.1813; 
2.099 3.405 0.1812; 
2.105 3.405 0.181; 
2.11 3.405 0.1809; 
2.115 3.405 0.1807; 
2.121 3.405 0.1806; 
2.126 3.405 0.1804; 
2.132 3.405 0.1803; 
2.137 3.405 0.1801; 
2.143 3.405 0.1799; 
2.148 3.405 0.1798; 
2.154 3.405 0.1796; 
2.16 3.405 0.1794; 
2.165 3.405 0.1792; 
2.171 3.405 0.179; 
2.177 3.405 0.1788; 
2.182 3.405 0.1787; 
2.188 3.405 0.1785; 
2.194 3.405 0.1783; 
2.2 3.405 0.1781; 
2.206 3.405 0.1779; 
2.212 3.405 0.1777; 
2.218 3.405 0.1774; 
2.223 3.405 0.1772; 
2.229 3.405 0.177; 
2.236 3.405 0.1768; 
2.242 3.405 0.1766; 
2.248 3.405 0.1763; 
2.254 3.405 0.1761; 
2.26 3.405 0.1759; 
2.266 3.405 0.1756; 
2.272 3.405 0.1754; 
2.279 3.405 0.1752; 
2.285 3.405 0.1749; 
2.291 3.405 0.1747; 
2.298 3.405 0.1744; 
2.304 3.405 0.1741; 
2.311 3.405 0.1739; 
2.317 3.405 0.1736; 
2.323 3.405 0.1733; 
2.33 3.405 0.173; 
2.337 3.405 0.1728; 
2.343 3.405 0.1725; 
2.35 3.405 0.1722; 
2.357 3.405 0.1719; 
2.363 3.405 0.1716; 
2.37 3.405 0.1713; 
2.377 3.405 0.171; 
2.384 3.405 0.1707; 
2.391 3.405 0.1703; 
2.398 3.405 0.17; 
2.405 3.405 0.1697; 
2.412 3.405 0.1694; 
2.419 3.405 0.169; 
2.426 3.405 0.1687; 
2.433 3.405 0.1683; 
2.44 3.405 0.168; 
2.447 3.405 0.1676; 
2.455 3.405 0.1672; 
2.462 3.405 0.1669; 
2.469 3.405 0.1665; 
2.477 3.405 0.1661; 
2.484 3.405 0.1657; 
2.492 3.405 0.1653; 
2.499 3.405 0.1649; 
2.507 3.405 0.1645; 
2.514 3.405 0.1641; 
2.522 3.405 0.1637; 
2.53 3.405 0.1632; 
2.538 3.405 0.1628; 
2.545 3.405 0.1624; 
2.553 3.405 0.1619; 
2.561 3.405 0.1615; 
2.569 3.405 0.161; 
2.577 3.405 0.1605; 
2.585 3.405 0.16; 
2.593 3.405 0.1595; 
2.601 3.405 0.159; 
2.61 3.405 0.1585; 
2.618 3.405 0.158; 
2.626 3.405 0.1575; 
2.635 3.405 0.157; 
2.643 3.405 0.1564; 
2.652 3.405 0.1559; 
2.66 3.405 0.1553; 
2.669 3.405 0.1548; 
2.677 3.405 0.1542; 
2.686 3.405 0.1536; 
2.695 3.405 0.153; 
2.704 3.405 0.1524; 
2.712 3.405 0.1517; 
2.721 3.405 0.1511; 
2.73 3.405 0.1505; 
2.739 3.405 0.1498; 
2.749 3.405 0.1491; 
2.758 3.405 0.1485; 
2.767 3.405 0.1478; 
2.776 3.405 0.1471; 
2.786 3.405 0.1463; 
2.795 3.405 0.1456; 
2.804 3.405 0.1448; 
2.814 3.405 0.1441; 
2.824 3.405 0.1433; 
2.833 3.404 0.1425; 
2.843 3.404 0.1417; 
2.853 3.404 0.1409; 
2.863 3.404 0.14; 
2.873 3.404 0.1392; 
2.883 3.404 0.1383; 
2.893 3.404 0.1374; 
2.903 3.404 0.1365; 
2.913 3.404 0.1355; 
2.924 3.404 0.1346; 
2.934 3.404 0.1336; 
2.944 3.404 0.1326; 
2.955 3.404 0.1315; 
2.966 3.404 0.1305; 
2.976 3.404 0.1294; 
2.987 3.404 0.1283; 
2.998 3.404 0.1272; 
3.009 3.404 0.126; 
3.02 3.404 0.1249; 
3.031 3.404 0.1236; 
3.042 3.404 0.1224; 
3.053 3.404 0.1211; 
3.064 3.404 0.1198; 
3.076 3.404 0.1185; 
3.087 3.404 0.1171; 
3.099 3.404 0.1157; 
3.111 3.404 0.1142; 
3.122 3.404 0.1127; 
3.134 3.404 0.1112; 
3.146 3.404 0.1096; 
3.158 3.404 0.1079; 
3.17 3.404 0.1062; 
3.183 3.404 0.1045; 
3.195 3.404 0.1027; 
3.207 3.404 0.1008; 
3.22 3.404 0.09885; 
3.232 3.404 0.09684; 
3.245 3.404 0.09475; 
3.258 3.404 0.09258; 
3.271 3.404 0.09032; 
3.284 3.404 0.08796; 
3.297 3.404 0.08549; 
3.31 3.404 0.08291; 
3.323 3.404 0.0802; 
3.337 3.404 0.07734; 
3.35 3.404 0.07432; 
3.364 3.404 0.07112; 
3.378 3.404 0.06772; 
3.391 3.404 0.06406; 
3.405 3.404 0.06012; 
3.42 3.404 0.05582; 
3.434 3.404 0.05107; 
3.448 3.404 0.04574; 
3.463 3.404 0.03959; 
3.477 3.404 0.03213; 
3.492 3.404 0.0221; 
3.507 3.404 3.686e-6; 
3.522 3.404 3.733e-6; 
3.537 3.404 3.782e-6; 
3.552 3.404 3.831e-6; 
3.567 3.404 3.881e-6; 
3.583 3.404 3.933e-6; 
3.598 3.404 3.985e-6; 
3.614 3.404 4.038e-6; 
3.63 3.404 4.092e-6; 
3.646 3.404 4.146e-6; 
3.662 3.404 4.202e-6; 
3.678 3.404 4.259e-6; 
3.695 3.404 4.317e-6; 
3.711 3.403 4.376e-6; 
3.728 3.403 4.436e-6; 
3.745 3.403 4.497e-6; 
3.762 3.403 4.56e-6; 
3.779 3.403 4.623e-6; 
3.797 3.403 4.688e-6; 
3.814 3.403 4.753e-6; 
3.832 3.403 4.821e-6; 
3.85 3.403 4.889e-6; 
3.868 3.403 4.959e-6; 
3.886 3.403 5.03e-6; 
3.904 3.403 5.102e-6; 
3.923 3.403 5.176e-6; 
3.941 3.403 5.251e-6; 
3.96 3.403 5.328e-6; 
3.979 3.403 5.406e-6; 
3.999 3.403 5.485e-6; 
4.018 3.403 5.567e-6; 
4.038 3.403 5.65e-6; 
4.058 3.403 5.734e-6; 
4.078 3.403 5.82e-6; 
4.098 3.403 5.908e-6; 
4.118 3.403 5.998e-6; 
4.139 3.403 6.09e-6; 
4.16 3.403 6.183e-6; 
4.181 3.403 6.279e-6; 
4.202 3.403 6.376e-6; 
4.223 3.403 6.476e-6; 
4.245 3.403 6.577e-6; 
4.267 3.403 6.681e-6; 
4.289 3.403 6.787e-6; 
4.312 3.403 6.895e-6; 
4.334 3.403 7.005e-6; 
4.357 3.403 7.118e-6; 
4.38 3.403 7.234e-6; 
4.404 3.403 7.351e-6; 
4.427 3.402 7.472e-6; 
4.451 3.402 7.595e-6; 
4.475 3.402 7.72e-6; 
4.499 3.402 7.849e-6; 
4.524 3.402 7.98e-6; 
4.549 3.402 8.115e-6; 
4.574 3.402 8.252e-6; 
4.6 3.402 8.393e-6; 
4.625 3.402 8.537e-6; 
4.651 3.402 8.684e-6; 
4.678 3.402 8.834e-6; 
4.704 3.402 8.988e-6; 
4.731 3.402 9.146e-6; 
4.758 3.402 9.307e-6; 
4.786 3.402 9.472e-6; 
4.814 3.402 9.642e-6; 
4.842 3.402 9.815e-6; 
4.871 3.402 9.992e-6; 
4.9 3.402 1.017e-5; 
4.929 3.402 1.036e-5; 
4.958 3.402 1.055e-5; 
4.988 3.402 1.075e-5; 
5.019 3.402 1.095e-5; 
5.049 3.401 1.115e-5; 
5.08 3.401 1.136e-5; 
5.112 3.401 1.158e-5; 
5.144 3.401 1.18e-5; 
5.176 3.401 1.203e-5; 
5.208 3.401 1.226e-5; 
5.241 3.401 1.25e-5; 
5.275 3.401 1.274e-5; 
5.309 3.401 1.3e-5; 
5.343 3.401 1.326e-5; 
5.378 3.401 1.352e-5; 
5.413 3.401 1.379e-5; 
5.449 3.401 1.407e-5; 
5.485 3.401 1.436e-5; 
5.522 3.401 1.466e-5; 
5.559 3.4 1.496e-5; 
5.596 3.4 1.527e-5; 
5.634 3.4 1.56e-5; 
5.673 3.4 1.593e-5; 
5.712 3.4 1.627e-5; 
5.752 3.4 1.662e-5; 
5.792 3.4 1.698e-5; 
5.833 3.4 1.735e-5; 
5.875 3.4 1.773e-5; 
5.917 3.4 1.812e-5; 
5.96 3.4 1.853e-5; 
6.003 3.4 1.894e-5; 
6.047 3.399 1.937e-5; 
6.091 3.399 1.981e-5; 
6.137 3.399 2.027e-5; 
6.182 3.399 2.074e-5; 
6.229 3.399 2.123e-5; 
6.276 3.399 2.173e-5; 
6.324 3.399 2.224e-5; 
6.373 3.399 2.278e-5; 
6.423 3.399 2.333e-5; 
6.473 3.399 2.39e-5; 
6.524 3.398 2.448e-5; 
6.576 3.398 2.509e-5; 
6.629 3.398 2.572e-5; 
6.682 3.398 2.636e-5; 
6.737 3.398 2.704e-5; 
6.792 3.398 2.773e-5; 
6.849 3.398 2.845e-5; 
6.906 3.397 2.919e-5; 
6.964 3.397 2.996e-5; 
7.023 3.397 3.076e-5; 
7.083 3.397 3.158e-5; 
7.145 3.397 3.244e-5; 
7.207 3.397 3.332e-5; 
7.27 3.397 3.424e-5; 
7.335 3.396 3.52e-5; 
7.401 3.396 3.619e-5; 
7.467 3.396 3.722e-5; 
7.535 3.396 3.828e-5; 
7.605 3.396 3.939e-5; 
7.675 3.395 4.055e-5; 
7.747 3.395 4.175e-5; 
7.821 3.395 4.299e-5; 
7.895 3.395 4.429e-5; 
7.972 3.395 4.564e-5; 
8.049 3.394 4.705e-5; 
8.128 3.394 4.852e-5; 
8.209 3.394 5.005e-5; 
8.292 3.394 5.164e-5; 
8.376 3.393 5.331e-5; 
8.461 3.393 5.504e-5; 
8.549 3.393 5.686e-5; 
8.638 3.393 5.875e-5; 
8.73 3.392 6.074e-5; 
8.823 3.392 6.281e-5; 
8.918 3.392 6.498e-5; 
9.015 3.391 6.726e-5; 
9.115 3.391 6.964e-5; 
9.216 3.391 7.213e-5; 
9.32 3.39 7.476e-5; 
9.427 3.39 7.751e-5; 
9.535 3.39 8.039e-5; 
9.647 3.389 8.343e-5; 
9.761 3.389 8.663e-5; 
9.877 3.388 8.999e-5; 
9.997 3.388 9.353e-5; 
10.12 3.387 9.726e-5; 
10.24 3.387 0.0001012; 
10.37 3.386 0.0001054; 
10.5 3.386 0.0001097; 
10.64 3.385 0.0001144; 
10.78 3.385 0.0001193; 
10.92 3.384 0.0001245; 
11.07 3.383 0.00013; 
11.22 3.383 0.0001359; 
11.37 3.382 0.0001421; 
11.53 3.381 0.0001487; 
11.69 3.381 0.0001558; 
11.86 3.38 0.0001633; 
12.03 3.379 0.0001713; 
12.21 3.378 0.0001798; 
12.4 3.377 0.000189; 
12.58 3.376 0.0001988; 
12.78 3.375 0.0002093; 
12.98 3.374 0.0002205; 
13.19 3.373 0.0002326; 
13.4 3.372 0.0002457; 
13.62 3.371 0.0002598; 
13.85 3.369 0.000275; 
14.09 3.368 0.0002914; 
14.33 3.367 0.0003093; 
14.58 3.365 0.0003286; 
14.85 3.363 0.0003497; 
15.12 3.362 0.0003727; 
15.4 3.36 0.0003978; 
15.69 3.358 0.0004253; 
15.99 3.355 0.0004556; 
16.31 3.353 0.0004889; 
16.64 3.351 0.0005256; 
16.98 3.348 0.0005663; 
17.34 3.345 0.0006116; 
17.71 3.342 0.000662; 
18.1 3.339 0.0007184; 
18.5 3.335 0.0007817; 
18.93 3.331 0.0008532; 
19.37 3.326 0.0009342; 
19.83 3.322 0.001026; 
20.32 3.316 0.001132; 
20.83 3.31 0.001253; 
21.37 3.304 0.001394; 
21.94 3.297 0.001558; 
22.54 3.289 0.001751; 
23.17 3.279 0.00198; 
23.84 3.269 0.002254; 
24.55 3.257 0.002586; 
25.3 3.243 0.002993; 
26.1 3.227 0.003499; 
26.95 3.209 0.004139; 
27.86 3.186 0.004963; 
28.83 3.159 0.00605; 
29.87 3.126 0.007523; 
30.99 3.084 0.009589; 
32.2 3.03 0.01261; 
33.5 2.957 0.0173; 
34.92 2.855 0.02516; 
36.46 2.699 0.03989; 
38.14 2.434 0.07326; 
39.99 1.875 0.1862; 
42.02 0.609 1.572; 
44.27 1.428 5.206; 
46.78 7.169 1.088; 
49.58 5.163 0.1888; 
52.75 4.579 0.07702; 
56.35 4.302 0.0417; 
60.47 4.14 0.02606; 
65.24 4.034 0.01776; 
70.83 3.96 0.01283; 
77.48 3.906 0.009681; 
85.49 3.865 0.007564; 
95.36 3.833 0.006112; 
107.8 3.807 0.005139; 
124.0 3.786 0.004585; 
145.8 3.768 0.004523; 
177.1 3.751 0.005288; 
225.4 3.733 0.007988; 
309.9 3.708 0.01692; 
495.9 3.655 0.05593; 
1240.0 3.517 0.3782; 
) 
  } 
